Folder: OriginLite/data

File: 03ZnO UV vis Reflectancia difusa.txt
"013042 - RawData - C:\Program Files\Shimadzu\UVProbe\Data\Dr. Contreras\Francisco\03ZnO.spc"
"Wavelength nm."	"R%"
200.00	23.996
202.50	23.941
205.00	22.816
207.50	21.533
210.00	20.966
212.50	20.671
215.00	20.691
217.50	20.247
220.00	20.369
222.50	20.029
225.00	20.163
227.50	20.158
230.00	19.856
232.50	19.653
235.00	19.110
237.50	18.900
240.00	18.372
242.50	17.897
245.00	17.386
247.50	17.123
250.00	16.753
252.50	16.286
255.00	15.981
257.50	15.527
260.00	15.318
262.50	15.063
265.00	14.873
267.50	14.583
270.00	14.465
272.50	14.256
275.00	13.974
277.50	13.618
280.00	13.536
282.50	13.324
285.00	13.078
287.50	13.072
290.00	12.776
292.50	12.596
295.00	12.459
297.50	12.227
300.00	12.065
302.50	11.926
305.00	11.783
307.50	12.112
310.00	11.810
312.50	11.626
315.00	11.594
317.50	11.362
320.00	11.166
322.50	11.211
325.00	11.008
327.50	10.878
330.00	10.727
332.50	10.582
335.00	10.648
337.50	10.362
340.00	10.187
342.50	10.191
345.00	9.970
347.50	10.008
350.00	9.966
352.50	9.659
355.00	9.605
357.50	9.502
360.00	10.220
362.50	9.354
365.00	9.320
367.50	9.212
370.00	9.163
372.50	9.306
375.00	9.517
377.50	10.274
380.00	11.867
382.50	13.809
385.00	15.874
387.50	17.603
390.00	18.964
392.50	20.229
395.00	21.143
397.50	21.912
400.00	22.540
402.50	22.993
405.00	23.296
407.50	23.528
410.00	23.766
412.50	23.997
415.00	24.045
417.50	23.845
420.00	23.961
422.50	23.904
425.00	23.955
427.50	24.055
430.00	24.026
432.50	24.022
435.00	24.007
437.50	23.941
440.00	23.883
442.50	23.869
445.00	23.750
447.50	23.814
450.00	23.727
452.50	23.640
455.00	23.621
457.50	23.509
460.00	23.518
462.50	23.459
465.00	23.396
467.50	23.340
470.00	23.254
472.50	23.186
475.00	23.128
477.50	23.117
480.00	23.032
482.50	23.009
485.00	22.826
487.50	22.856
490.00	22.736
492.50	22.781
495.00	22.731
497.50	22.717
500.00	22.688
502.50	22.638
505.00	22.641
507.50	22.537
510.00	22.455
512.50	22.345
515.00	22.350
517.50	22.287
520.00	22.235
522.50	22.137
525.00	22.040
527.50	21.957
530.00	21.936
532.50	21.912
535.00	21.844
537.50	21.750
540.00	21.696
542.50	21.619
545.00	21.541
547.50	21.498
550.00	21.451
552.50	21.454
555.00	21.376
557.50	21.382
560.00	21.347
562.50	21.268
565.00	21.194
567.50	21.156
570.00	21.103
572.50	21.013
575.00	21.008
577.50	21.043
580.00	20.935
582.50	20.946
585.00	20.905
587.50	20.825
590.00	20.833
592.50	20.741
595.00	20.697
597.50	20.709
600.00	20.702
602.50	20.638
605.00	20.581
607.50	20.615
610.00	20.500
612.50	20.544
615.00	20.479
617.50	20.520
620.00	20.506
622.50	20.416
625.00	20.413
627.50	20.474
630.00	20.386
632.50	20.392
635.00	20.425
637.50	20.290
640.00	20.322
642.50	20.302
645.00	20.279
647.50	20.198
650.00	20.161
652.50	20.139
655.00	20.099
657.50	20.166
660.00	20.010
662.50	20.041
665.00	20.006
667.50	19.849
670.00	19.847
672.50	19.754
675.00	19.762
677.50	19.763
680.00	19.707
682.50	19.737
685.00	19.650
687.50	19.662
690.00	19.647
692.50	19.586
695.00	19.649
697.50	19.435
700.00	19.534
702.50	19.531
705.00	19.429
707.50	19.456
710.00	19.473
712.50	19.440
715.00	19.400
717.50	19.386
720.00	19.328
722.50	19.392
725.00	19.420
727.50	19.258
730.00	19.260
732.50	19.278
735.00	19.196
737.50	19.241
740.00	19.151
742.50	19.063
745.00	19.119
747.50	19.171
750.00	19.064
752.50	19.029
755.00	19.128
757.50	19.058
760.00	19.122
762.50	19.234
765.00	19.133
767.50	19.209
770.00	19.157
772.50	19.196
775.00	19.167
777.50	19.046
780.00	19.043
782.50	19.032
785.00	19.002
787.50	18.932
790.00	18.929
792.50	18.936
795.00	19.035
797.50	18.915
800.00	18.910